% Date and time: 2019-03-14 15:45
% Measurement type: Single spectrum
% Initial holding time: 0 seconds
% Integration type: MED
% Integration time: 16
%    Bias [V]	  Freq1 [Hz]	    Cap1 [F]	Cond1 [S/Hz]	
        0.00	     1000000	   1.438E-09	   1.594E-10	
       -0.05	     1000000	   1.389E-09	   1.487E-10	
       -0.10	     1000000	   1.345E-09	   1.395E-10	
       -0.15	     1000000	   1.304E-09	   1.313E-10	
       -0.20	     1000000	   1.267E-09	   1.240E-10	
       -0.25	     1000000	   1.233E-09	   1.176E-10	
       -0.30	     1000000	   1.202E-09	   1.117E-10	
       -0.35	     1000000	   1.173E-09	   1.065E-10	
       -0.40	     1000000	   1.146E-09	   1.018E-10	
       -0.45	     1000000	   1.121E-09	   9.743E-11	
       -0.50	     1000000	   1.097E-09	   9.348E-11	
       -0.55	     1000000	   1.076E-09	   8.984E-11	
       -0.60	     1000000	   1.055E-09	   8.647E-11	
       -0.65	     1000000	   1.035E-09	   8.335E-11	
       -0.70	     1000000	   1.017E-09	   8.048E-11	
       -0.75	     1000000	   9.995E-10	   7.779E-11	
       -0.80	     1000000	   9.831E-10	   7.530E-11	
       -0.85	     1000000	   9.674E-10	   7.296E-11	
       -0.90	     1000000	   9.524E-10	   7.074E-11	
       -0.95	     1000000	   9.382E-10	   6.869E-11	
       -1.00	     1000000	   9.247E-10	   6.676E-11	
       -1.05	     1000000	   9.117E-10	   6.493E-11	
       -1.10	     1000000	   8.992E-10	   6.320E-11	
       -1.15	     1000000	   8.873E-10	   6.158E-11	
       -1.20	     1000000	   8.759E-10	   6.003E-11	
       -1.25	     1000000	   8.649E-10	   5.858E-11	
       -1.30	     1000000	   8.544E-10	   5.720E-11	
       -1.35	     1000000	   8.442E-10	   5.587E-11	
       -1.40	     1000000	   8.344E-10	   5.462E-11	
       -1.45	     1000000	   8.250E-10	   5.343E-11	
       -1.50	     1000000	   8.158E-10	   5.228E-11	
       -1.55	     1000000	   8.070E-10	   5.120E-11	
       -1.60	     1000000	   7.985E-10	   5.016E-11	
       -1.65	     1000000	   7.902E-10	   4.914E-11	
       -1.70	     1000000	   7.823E-10	   4.821E-11	
       -1.75	     1000000	   7.745E-10	   4.730E-11	
       -1.80	     1000000	   7.670E-10	   4.642E-11	
       -1.85	     1000000	   7.596E-10	   4.557E-11	
       -1.90	     1000000	   7.526E-10	   4.476E-11	
       -1.95	     1000000	   7.457E-10	   4.396E-11	
       -2.00	     1000000	   7.391E-10	   4.321E-11	
       -2.05	     1000000	   7.326E-10	   4.248E-11	
       -2.10	     1000000	   7.263E-10	   4.176E-11	
       -2.15	     1000000	   7.202E-10	   4.109E-11	
       -2.20	     1000000	   7.142E-10	   4.043E-11	
       -2.25	     1000000	   7.084E-10	   3.980E-11	
       -2.30	     1000000	   7.027E-10	   3.921E-11	
       -2.35	     1000000	   6.972E-10	   3.862E-11	
       -2.40	     1000000	   6.917E-10	   3.805E-11	
       -2.45	     1000000	   6.865E-10	   3.749E-11	
       -2.50	     1000000	   6.814E-10	   3.698E-11	
       -2.55	     1000000	   6.763E-10	   3.648E-11	
       -2.60	     1000000	   6.714E-10	   3.598E-11	
       -2.65	     1000000	   6.666E-10	   3.549E-11	
       -2.70	     1000000	   6.619E-10	   3.503E-11	
       -2.75	     1000000	   6.573E-10	   3.457E-11	
       -2.80	     1000000	   6.529E-10	   3.414E-11	
       -2.85	     1000000	   6.485E-10	   3.373E-11	
       -2.90	     1000000	   6.442E-10	   3.330E-11	
       -2.95	     1000000	   6.400E-10	   3.289E-11	
       -3.00	     1000000	   6.359E-10	   3.252E-11	
       -3.05	     1000000	   6.319E-10	   3.214E-11	
       -3.10	     1000000	   6.280E-10	   3.178E-11	
       -3.15	     1000000	   6.241E-10	   3.144E-11	
       -3.20	     1000000	   6.204E-10	   3.111E-11	
       -3.25	     1000000	   6.167E-10	   3.081E-11	
       -3.30	     1000000	   6.130E-10	   3.048E-11	
       -3.35	     1000000	   6.095E-10	   3.017E-11	
       -3.40	     1000000	   6.059E-10	   2.986E-11	
       -3.45	     1000000	   6.025E-10	   2.955E-11	
       -3.50	     1000000	   5.992E-10	   2.929E-11	
       -3.55	     1000000	   5.958E-10	   2.902E-11	
       -3.60	     1000000	   5.926E-10	   2.874E-11	
       -3.65	     1000000	   5.893E-10	   2.846E-11	
       -3.70	     1000000	   5.862E-10	   2.821E-11	
       -3.75	     1000000	   5.831E-10	   2.795E-11	
       -3.80	     1000000	   5.800E-10	   2.771E-11	
       -3.85	     1000000	   5.771E-10	   2.748E-11	
       -3.90	     1000000	   5.742E-10	   2.726E-11	
       -3.95	     1000000	   5.713E-10	   2.705E-11	
       -4.00	     1000000	   5.685E-10	   2.683E-11	
       -4.05	     1000000	   5.658E-10	   2.666E-11	
       -4.10	     1000000	   5.631E-10	   2.648E-11	
       -4.15	     1000000	   5.604E-10	   2.629E-11	
       -4.20	     1000000	   5.579E-10	   2.613E-11	
       -4.25	     1000000	   5.551E-10	   2.588E-11	
       -4.30	     1000000	   5.525E-10	   2.569E-11	
       -4.35	     1000000	   5.500E-10	   2.550E-11	
       -4.40	     1000000	   5.476E-10	   2.536E-11	
       -4.45	     1000000	   5.450E-10	   2.510E-11	
       -4.50	     1000000	   5.426E-10	   2.496E-11	
       -4.55	     1000000	   5.401E-10	   2.476E-11	
       -4.60	     1000000	   5.378E-10	   2.462E-11	
       -4.65	     1000000	   5.356E-10	   2.450E-11	
       -4.70	     1000000	   5.333E-10	   2.436E-11	
       -4.75	     1000000	   5.313E-10	   2.427E-11	
       -4.80	     1000000	   5.295E-10	   2.432E-11	
       -4.85	     1000000	   5.274E-10	   2.419E-11	
       -4.90	     1000000	   5.251E-10	   2.399E-11	
       -4.95	     1000000	   5.230E-10	   2.386E-11	
       -5.00	     1000000	   5.208E-10	   2.374E-11	
       -5.05	     1000000	   5.187E-10	   2.355E-11	
       -5.10	     1000000	   5.166E-10	   2.344E-11	
       -5.15	     1000000	   5.145E-10	   2.329E-11	
       -5.20	     1000000	   5.125E-10	   2.316E-11	
       -5.25	     1000000	   5.105E-10	   2.303E-11	
       -5.30	     1000000	   5.087E-10	   2.300E-11	
       -5.35	     1000000	   5.069E-10	   2.294E-11	
       -5.40	     1000000	   5.050E-10	   2.284E-11	
       -5.45	     1000000	   5.031E-10	   2.273E-11	
       -5.50	     1000000	   5.014E-10	   2.264E-11	
       -5.55	     1000000	   4.998E-10	   2.271E-11	
       -5.60	     1000000	   4.980E-10	   2.264E-11	
       -5.65	     1000000	   4.962E-10	   2.248E-11	
       -5.70	     1000000	   4.945E-10	   2.247E-11	
       -5.75	     1000000	   4.929E-10	   2.241E-11	
       -5.80	     1000000	   4.913E-10	   2.231E-11	
       -5.85	     1000000	   4.897E-10	   2.235E-11	
       -5.90	     1000000	   4.882E-10	   2.235E-11	
       -5.95	     1000000	   4.865E-10	   2.221E-11	
       -6.00	     1000000	   4.848E-10	   2.213E-11	
       -6.05	     1000000	   4.832E-10	   2.209E-11	
       -6.10	     1000000	   4.817E-10	   2.208E-11	
       -6.15	     1000000	   4.802E-10	   2.206E-11	
       -6.20	     1000000	   4.784E-10	   2.191E-11	
       -6.25	     1000000	   4.768E-10	   2.192E-11	
       -6.30	     1000000	   4.754E-10	   2.186E-11	
       -6.35	     1000000	   4.738E-10	   2.180E-11	
       -6.40	     1000000	   4.723E-10	   2.179E-11	
       -6.45	     1000000	   4.709E-10	   2.176E-11	
       -6.50	     1000000	   4.695E-10	   2.169E-11	
       -6.55	     1000000	   4.679E-10	   2.154E-11	
       -6.60	     1000000	   4.665E-10	   2.163E-11	
       -6.65	     1000000	   4.653E-10	   2.162E-11	
       -6.70	     1000000	   4.638E-10	   2.158E-11	
       -6.75	     1000000	   4.623E-10	   2.156E-11	
       -6.80	     1000000	   4.609E-10	   2.151E-11	
       -6.85	     1000000	   4.596E-10	   2.155E-11	
       -6.90	     1000000	   4.582E-10	   2.153E-11	
       -6.95	     1000000	   4.568E-10	   2.146E-11	
       -7.00	     1000000	   4.555E-10	   2.147E-11	
       -7.05	     1000000	   4.542E-10	   2.139E-11	
       -7.10	     1000000	   4.529E-10	   2.141E-11	
       -7.15	     1000000	   4.516E-10	   2.144E-11	
       -7.20	     1000000	   4.503E-10	   2.134E-11	
       -7.25	     1000000	   4.490E-10	   2.142E-11	
       -7.30	     1000000	   4.477E-10	   2.145E-11	
       -7.35	     1000000	   4.464E-10	   2.136E-11	
       -7.40	     1000000	   4.451E-10	   2.131E-11	
       -7.45	     1000000	   4.439E-10	   2.133E-11	
       -7.50	     1000000	   4.426E-10	   2.130E-11	
       -7.55	     1000000	   4.413E-10	   2.128E-11	
       -7.60	     1000000	   4.401E-10	   2.132E-11	
       -7.65	     1000000	   4.390E-10	   2.138E-11	
       -7.70	     1000000	   4.376E-10	   2.139E-11	
       -7.75	     1000000	   4.365E-10	   2.141E-11	
       -7.80	     1000000	   4.352E-10	   2.147E-11	
       -7.85	     1000000	   4.340E-10	   2.133E-11	
       -7.90	     1000000	   4.328E-10	   2.150E-11	
       -7.95	     1000000	   4.316E-10	   2.146E-11	
       -8.00	     1000000	   4.305E-10	   2.149E-11	
       -8.05	     1000000	   4.293E-10	   2.146E-11	
       -8.10	     1000000	   4.281E-10	   2.146E-11	
       -8.15	     1000000	   4.270E-10	   2.164E-11	
       -8.20	     1000000	   4.258E-10	   2.150E-11	
       -8.25	     1000000	   4.249E-10	   2.175E-11	
       -8.30	     1000000	   4.237E-10	   2.177E-11	
       -8.35	     1000000	   4.225E-10	   2.188E-11	
       -8.40	     1000000	   4.214E-10	   2.180E-11	
       -8.45	     1000000	   4.204E-10	   2.210E-11	
       -8.50	     1000000	   4.194E-10	   2.225E-11	
       -8.55	     1000000	   4.184E-10	   2.229E-11	
       -8.60	     1000000	   4.173E-10	   2.226E-11	
       -8.65	     1000000	   4.162E-10	   2.255E-11	
       -8.70	     1000000	   4.152E-10	   2.266E-11	
       -8.75	     1000000	   4.140E-10	   2.259E-11	
       -8.80	     1000000	   4.130E-10	   2.264E-11	
       -8.85	     1000000	   4.120E-10	   2.304E-11	
       -8.90	     1000000	   4.110E-10	   2.310E-11	
       -8.95	     1000000	   4.100E-10	   2.325E-11	
       -9.00	     1000000	   4.090E-10	   2.337E-11	
       -9.05	     1000000	   4.080E-10	   2.385E-11	
       -9.10	     1000000	   4.069E-10	   2.373E-11	
       -9.15	     1000000	   4.059E-10	   2.384E-11	
       -9.20	     1000000	   4.050E-10	   2.376E-11	
       -9.25	     1000000	   4.040E-10	   2.397E-11	
       -9.30	     1000000	   4.031E-10	   2.392E-11	
       -9.35	     1000000	   4.021E-10	   2.403E-11	
       -9.40	     1000000	   4.011E-10	   2.450E-11	
       -9.45	     1000000	   4.001E-10	   2.465E-11	
       -9.50	     1000000	   3.992E-10	   2.513E-11	
       -9.55	     1000000	   3.982E-10	   2.505E-11	
       -9.60	     1000000	   3.973E-10	   2.523E-11	
       -9.65	     1000000	   3.963E-10	   2.524E-11	
       -9.70	     1000000	   3.954E-10	   2.545E-11	
       -9.75	     1000000	   3.945E-10	   2.585E-11	
       -9.80	     1000000	   3.937E-10	   2.625E-11	
       -9.85	     1000000	   3.928E-10	   2.660E-11	
       -9.90	     1000000	   3.919E-10	   2.641E-11	
       -9.95	     1000000	   3.909E-10	   2.635E-11	
      -10.00	     1000000	   3.901E-10	   2.650E-11	
